#Wave		#Intensity
2381.980469	11508.136719
2378.621094	11449.199219
2375.263672	11433.258789
2371.902344	11434.153320
2368.541016	11443.453125
2365.177734	11299.130859
2361.814453	11355.831055
2358.449219	11418.591797
2355.082031	11359.166016
2351.712891	11295.966797
2348.343750	11328.918945
2344.972656	11372.514648
2341.601563	11163.041992
2338.228516	11199.804688
2334.853516	11220.541016
2331.476563	11124.026367
2328.099609	10962.142578
2324.720703	11189.832031
2321.341797	11062.256836
2317.958984	10919.577148
2314.576172	10985.935547
2311.193359	10986.926758
2307.806641	10934.012695
2304.421875	10857.612305
2301.033203	10885.189453
2297.642578	10748.958984
2294.251953	10756.085938
2290.861328	10774.567383
2287.466797	10693.816406
2284.072266	10766.051758
2280.675781	10667.199219
2277.279297	10658.438477
2273.880859	10618.679688
2270.480469	10485.221680
2267.078125	10528.666016
2263.675781	10469.357422
2260.271484	10496.912109
2256.865234	10439.919922
2253.458984	10422.196289
2250.050781	10367.533203
2246.640625	10432.757813
2243.230469	10320.111328
2239.818359	10359.688477
2236.404297	10302.111328
2232.990234	10303.276367
2229.572266	10196.112305
2226.156250	10240.924805
2222.736328	10178.962891
2219.316406	10118.548828
2215.894531	10056.678711
2212.470703	9965.574219
2209.046875	9999.114258
2205.621094	10092.637695
2202.193359	9994.119141
2198.763672	9966.134766
2195.333984	9939.666992
2191.902344	9938.681641
2188.470703	9922.720703
2185.035156	9995.824219
2181.599609	9828.738281
2178.164063	9816.569336
2174.724609	9849.253906
2171.285156	9800.468750
2167.843750	9774.872070
2164.402344	9718.683594
2160.957031	9766.267578
2157.511719	9663.871094
2154.066406	9703.229492
2150.617188	9608.388672
2147.167969	9515.111328
2143.718750	9516.489258
2140.265625	9572.208008
2136.812500	9483.512695
2133.357422	9457.370117
2129.900391	9455.781250
2126.443359	9330.811523
2122.984375	9451.114258
2119.523438	9400.505859
2116.060547	9254.914063
2112.597656	9484.173828
2109.132813	9383.906250
2105.666016	9317.082031
2102.199219	9411.879883
2098.730469	9293.233398
2095.259766	9374.627930
2091.789063	9282.735352
2088.314453	9241.969727
2084.839844	9164.992188
2081.365234	9269.213867
2077.886719	9129.461914
2074.408203	9176.723633
2070.927734	9193.667969
2067.445313	9155.234375
2063.962891	9157.410156
2060.478516	9161.793945
2056.992188	9200.821289
2053.505859	9053.367188
2050.015625	9037.889648
2046.525391	9056.292969
2043.035156	9057.013672
2039.541016	9045.958984
2036.046875	8973.132813
2032.550781	9009.164063
2029.052734	9019.444336
2025.554688	8987.842773
2022.054688	8891.652344
2018.552734	8911.499023
2015.050781	8892.444336
2011.544922	8921.802734
2008.039063	8905.685547
2004.531250	8904.965820
2001.023438	8843.452148
1997.513672	8860.324219
1994.001953	8754.962891
1990.488281	8752.099609
1986.972656	8861.846680
1983.457031	8803.385742
1979.939453	8718.666992
1976.421875	8797.610352
1972.900391	8634.843750
1969.378906	8742.939453
1965.855469	8732.775391
1962.330078	8672.306641
1958.804688	8703.717773
1955.277344	8722.715820
1951.748047	8699.457031
1948.216797	8692.957031
1944.685547	8650.805664
1941.152344	8650.872070
1937.617188	8697.464844
1934.080078	8544.892578
1930.542969	8571.871094
1927.003906	8563.971680
1923.462891	8524.864258
1919.919922	8600.419922
1916.376953	8599.036133
1912.832031	8546.906250
1909.285156	8478.875000
1905.736328	8477.535156
1902.187500	8522.531250
1898.636719	8475.574219
1895.083984	8476.399414
1891.529297	8504.700195
1887.974609	8466.473633
1884.417969	8426.832031
1880.859375	8439.943359
1877.298828	8317.318359
1873.736328	8342.726563
1870.173828	8342.864258
1866.609375	8322.088867
1863.044922	8207.634766
1859.476563	8331.733398
1855.908203	8303.779297
1852.337891	8355.027344
1848.765625	8273.836914
1845.193359	8268.230469
1841.617188	8246.809570
1838.041016	8129.107910
1834.462891	8175.998535
1830.884766	8232.899414
1827.304688	8235.204102
1823.720703	8179.391602
1820.138672	8112.866699
1816.552734	8211.981445
1812.966797	8114.682617
1809.376953	8074.760742
1805.787109	8076.393555
1802.197266	8138.134766
1798.603516	8055.325684
1795.009766	8102.003906
1791.414063	8100.752930
1787.816406	8073.066895
1784.218750	8105.388672
1780.617188	8054.875977
1777.015625	8034.371582
1773.412109	7966.808594
1769.806641	7944.214844
1766.201172	7895.269531
1762.593750	7956.774902
1758.984375	7882.227539
1755.373047	7891.013184
1751.759766	7853.545898
1748.146484	7818.240723
1744.531250	7797.179688
1740.914063	7711.475098
1737.294922	7716.040039
1733.675781	7756.096191
1730.054688	7774.117188
1726.431641	7846.740234
1722.806641	7617.956055
1719.179688	7634.587891
1715.552734	7717.796875
1711.923828	7747.114258
1708.292969	7806.841797
1704.660156	7711.563965
1701.027344	7801.662598
1697.390625	7838.662109
1693.753906	7716.631348
1690.117188	7792.479492
1686.476563	7859.789063
1682.833984	7833.878906
1679.191406	7706.403320
1675.546875	7758.847656
1671.900391	7816.884277
1668.253906	7791.026855
1664.603516	7746.173828
1660.953125	7766.824707
1657.300781	7729.051758
1653.646484	7749.687988
1649.992188	7671.874512
1646.333984	7635.588379
1642.675781	7581.768555
1639.015625	7540.631348
1635.355469	7613.230469
1631.691406	7534.225098
1628.027344	7545.749023
1624.361328	7515.903320
1620.693359	7545.638672
1617.023438	7499.004395
1613.351563	7455.208008
1609.679688	7512.915527
1606.005859	7513.213867
1602.330078	7431.704102
1598.652344	7473.266602
1594.974609	7391.838379
1591.292969	7404.049805
1587.611328	7328.998047
1583.927734	7406.804688
1580.242188	7317.166016
1576.556641	7369.811523
1572.867188	7401.504883
1569.177734	7309.190430
1565.486328	7327.650391
1561.792969	7424.730957
1558.099609	7495.988281
1554.402344	7637.409668
1550.705078	7950.378906
1547.005859	8017.839844
1543.304688	8351.901367
1539.603516	8424.679688
1535.898438	8677.791016
1532.193359	8805.153320
1528.486328	8824.950195
1524.777344	8661.791992
1521.066406	8669.160156
1517.355469	8549.820313
1513.640625	8462.415039
1509.925781	8396.526367
1506.208984	8179.953613
1502.490234	8009.872070
1498.771484	7795.027832
1495.048828	7665.996094
1491.326172	7457.001465
1487.601563	7257.843750
1483.875000	7196.101074
1480.146484	7111.659668
1476.417969	7011.439453
1472.685547	6978.116211
1468.953125	6977.178223
1465.218750	6834.471191
1461.482422	6859.043945
1457.746094	6801.081543
1454.005859	6852.448730
1450.265625	6785.603516
1446.523438	6798.472656
1442.779297	6792.795410
1439.033203	6602.554199
1435.285156	6504.375977
1431.537109	6473.462402
1427.785156	6411.052734
1424.033203	6456.915039
1420.279297	6485.620117
1416.525391	6517.035645
1412.767578	6572.363770
1409.009766	6663.881348
1405.248047	6684.237793
1401.486328	6796.118652
1397.722656	6726.940430
1393.958984	6853.718750
1390.191406	6891.006836
1386.423828	6839.602539
1382.652344	6990.020508
1378.880859	6927.711914
1375.107422	6917.899414
1371.332031	7078.293457
1367.556641	7190.911133
1363.777344	7193.234863
1359.998047	7337.657227
1356.216797	7506.417969
1352.433594	8048.659668
1348.648438	9219.211914
1344.863281	14589.447266
1341.074219	39382.203125
1337.285156	69861.382813
1333.492188	91236.937500
1329.699219	89550.820313
1325.906250	39050.339844
1322.109375	14447.873047
1318.310547	9152.700195
1314.511719	7865.625488
1310.710938	7328.770996
1306.906250	6976.196777
1303.103516	6767.132813
1299.296875	6565.675781
1295.488281	6441.332031
1291.679688	6221.974121
1287.867188	6022.360840
1284.054688	5940.874512
1280.240234	5914.029785
1276.423828	5755.885742
1272.605469	5781.646973
1268.787109	5666.084961
1264.964844	5646.797852
1261.142578	5630.887207
1257.318359	5479.250977
1253.492188	5507.083008
1249.664063	5438.209961
1245.833984	5424.424805
1242.001953	5363.694336
1238.169922	5329.835449
1234.335938	5300.025879
1230.498047	5303.066895
1226.660156	5267.935059
1222.820313	5224.800293
1218.980469	5194.413086
1215.136719	5211.532227
1211.292969	5114.329590
1207.445313	5239.707520
1203.597656	5160.606934
1199.748047	5128.304199
1195.896484	5150.078125
1192.042969	5098.462891
1188.189453	5102.226563
1184.332031	4989.365234
1180.474609	4985.843750
1176.613281	5066.216797
1172.751953	5007.422852
1168.888672	4893.464355
1165.023438	4945.840332
1161.158203	4905.117676
1157.289063	4983.349121
1153.417969	4848.345703
1149.546875	4865.463379
1145.673828	4812.899414
1141.798828	4837.973145
1137.921875	4825.900879
1134.042969	4757.516602
1130.162109	4701.774902
1126.281250	4667.927246
1122.396484	4708.222656
1118.511719	4663.154785
1114.625000	4669.695313
1110.734375	4660.368164
1106.843750	4586.972656
1102.953125	4630.509277
1099.058594	4658.826172
1095.162109	4596.739258
1091.265625	4582.841797
1087.365234	4501.726074
1083.464844	4547.832520
1079.562500	4492.483887
1075.658203	4541.842285
1071.751953	4477.331055
1067.843750	4390.515137
1063.933594	4460.885254
1060.023438	4456.941895
1056.109375	4474.018066
1052.195313	4381.443359
1048.279297	4345.382813
1044.361328	4409.707520
1040.441406	4336.292969
1036.519531	4371.071777
1032.595703	4331.144043
1028.669922	4240.834473
1024.744141	4299.821289
1020.814453	4270.440918
1016.884766	4218.853027
1012.953125	4246.394531
1009.019531	4215.766602
1005.083984	4159.043945
1001.146484	4131.743164
997.207031	4151.440430
993.265625	4143.728516
989.324219	4111.251953
985.378906	4111.381836
981.433594	4080.248291
977.484375	4086.248047
973.535156	4092.891602
969.583984	4042.292236
965.630859	4063.899658
961.675781	4047.146973
957.718750	4010.271973
953.761719	3979.921143
949.800781	4035.259521
945.839844	3939.406006
941.875000	3934.410645
937.910156	3885.347900
933.943359	3933.499268
929.972656	3905.198975
926.001953	3895.045410
922.031250	3904.954834
918.056641	3857.948486
914.080078	3891.132568
910.101563	3837.065186
906.123047	3861.831299
902.140625	3805.886475
898.158203	3809.350098
894.173828	3772.178955
890.185547	3787.255859
886.197266	3709.531250
882.207031	3756.179443
878.214844	3782.827881
874.220703	3710.997559
870.226563	3665.601563
866.228516	3749.470459
862.228516	3716.305420
858.228516	3685.096191
854.224609	3649.419189
850.220703	3669.606445
846.214844	3709.018799
842.207031	3630.416016
838.197266	3636.481445
834.185547	3611.150391
830.171875	3594.165283
826.156250	3588.074707
822.138672	3610.777832
818.119141	3634.738281
814.099609	3529.561279
810.076172	3526.700928
806.052734	3558.326904
802.025391	3512.048340
797.998047	3493.883545
793.968750	3535.682617
789.935547	3528.995850
785.902344	3470.065430
781.867188	3474.239014
777.830078	3515.331055
773.791016	3459.664551
769.751953	3364.613037
765.708984	3434.940186
761.664063	3392.726318
757.617188	3372.145508
753.570313	3368.724121
749.519531	3385.612061
745.468750	3294.649658
741.416016	3345.157715
737.359375	3323.371826
733.302734	3302.871582
729.244141	3263.393311
725.183594	3278.378418
721.121094	3228.190430
717.056641	3294.394043
712.990234	3203.791992
708.921875	3175.813721
704.851563	3222.373047
700.781250	3196.934570
696.707031	3194.230469
692.630859	3143.601074
688.554688	3112.556885
684.474609	3101.070801
680.394531	3160.757080
676.312500	3077.497803
672.226563	3083.657715
668.140625	3106.791504
664.052734	3082.128418
659.962891	3026.697998
655.869141	3032.865967
651.775391	3115.615234
647.679688	3000.003662
643.582031	3020.598145
639.484375	3030.515625
635.382813	3006.584961
631.279297	2997.081055
627.173828	2951.272949
623.066406	2936.168945
618.958984	2902.312500
614.847656	2911.000732
610.736328	2859.061768
606.621094	2905.863281
602.503906	2900.174805
598.386719	2894.490723
594.267578	2807.717041
590.144531	2899.970215
586.021484	2886.189209
581.896484	2847.501953
577.767578	2821.924805
573.638672	2826.866943
569.507813	2818.739502
565.375000	2754.033203
561.240234	2789.452148
557.103516	2759.606201
552.964844	2738.480225
548.824219	2791.234619
544.681641	2754.601563
540.537109	2722.962158
536.390625	2693.210205
532.242188	2683.310303
528.093750	2683.946289
523.941406	2653.012207
519.787109	2651.803467
515.630859	2582.567871
511.474609	2612.298096
507.314453	2578.978271
503.152344	2598.800293
498.990234	2522.921143
494.824219	2518.685303
490.658203	2608.813721
486.488281	2580.498779
482.318359	2563.916504
478.144531	2559.050293
473.970703	2486.470215
469.792969	2511.178467
465.615234	2532.788086
461.435547	2459.702148
457.251953	2463.493896
453.068359	2424.900635
448.882813	2436.070313
444.693359	2450.910889
440.503906	2405.626953
436.312500	2448.055176
432.119141	2401.586914
427.921875	2342.297363
423.724609	2336.326904
419.525391	2380.541992
415.324219	2376.392822
411.121094	2363.687256
406.916016	2347.936768
402.707031	2294.938477
398.498047	2312.813477
394.287109	2328.230225
390.074219	2289.341797
385.859375	2236.464844
381.642578	2223.249268
377.423828	2256.341797
373.203125	2246.172119
368.980469	2243.314697
364.755859	2219.167725
360.529297	2205.986816
356.298828	2136.295410
352.068359	2197.276611
347.835938	2219.947266
343.601563	2173.406494
339.365234	2113.561768
335.126953	2127.141846
330.886719	2146.769775
326.644531	2130.635986
322.400391	2090.295166
318.154297	2048.175049
313.906250	2034.526978
309.656250	2043.264404
305.404297	2019.959106
301.150391	2016.611084
296.894531	2012.057861
292.636719	2025.615601
288.376953	1941.425293
284.115234	1975.504639
279.851563	1974.592651
275.585938	1935.725464
271.316406	1934.831421
267.046875	1932.131836
262.775391	1907.173706
258.501953	1884.042114
254.226563	1906.613037
249.949219	1858.268311
245.669922	1861.612427
241.388672	1870.955322
237.103516	1832.291748
232.818359	1820.049561
228.531250	1831.794434
224.242188	1806.381714
219.949219	1774.404541
215.656250	1821.468506
211.361328	1733.870972
207.062500	1772.536621
202.763672	1733.459106
198.462891	1762.528564
194.158203	1697.214355
189.853516	1677.922485
185.546875	1678.933594
181.236328	1671.594238
176.925781	1677.374878
172.611328	1693.874146
168.296875	1647.827026
163.978516	1628.013184
159.658203	1634.991089
155.337891	1615.200562
151.013672	1637.631836
146.687500	1624.987061
142.361328	1626.606445
138.031250	1599.137695
133.699219	1577.627197
129.365234	1565.624878
125.031250	1560.153442
120.693359	1496.622925
116.353516	1429.005615
112.011719	1340.733154
107.667969	1131.252319
103.322266	822.614075
98.974609	539.089905
